Current (mA),Time (ms)
0.0,98.0
4.299,10291.0
3.873,10559.0
3.717,10829.0
3.923,11102.0
4.167,11370.0
4.352,11642.0
4.461,11914.0
4.511,12185.0
4.519,12457.0
4.504,12727.0
4.487,12997.0
4.479,13269.0
4.479,13540.0
4.485,13810.0
4.505,14080.0
4.533,14350.0
4.563,14621.0
4.596,14892.0
4.616,15165.0
4.638,15438.0
4.654,15709.0
4.677,15981.0
4.688,16252.0
4.705,16523.0
4.925,16795.0
4.976,17068.0
4.991,17339.0
4.996,17609.0
4.967,17880.0
5.006,18149.0
