Current (mA),Time (ms)
0.0,94.0
2.244,10289.0
2.055,10561.0
2.053,10833.0
2.104,11105.0
2.184,11379.0
2.26,11650.0
2.323,11921.0
2.378,12193.0
2.426,12465.0
2.473,12735.0
2.519,13005.0
2.56,13279.0
2.596,13549.0
2.626,13824.0
2.65,14094.0
2.672,14364.0
2.69,14638.0
2.705,14910.0
2.717,15181.0
2.726,15453.0
2.734,15726.0
2.74,15999.0
2.746,16270.0
2.75,16544.0
2.753,16815.0
2.755,17089.0
2.756,17363.0
2.755,17633.0
2.754,17906.0
2.751,18179.0
2.747,18449.0
2.741,18722.0
2.734,18994.0
2.726,19265.0
2.719,19539.0
2.71,19810.0
2.702,20083.0
2.694,20353.0
2.685,20625.0
2.679,20897.0
2.673,21168.0
2.668,21441.0
2.661,21713.0
2.655,21988.0
2.648,22260.0
2.643,22531.0
2.637,22803.0
2.632,23076.0
2.627,23348.0
2.621,23620.0
2.617,23892.0
2.613,24162.0
2.609,24434.0
2.607,24706.0
2.603,24979.0
2.601,25251.0
2.597,25525.0
2.595,25796.0
2.59,26067.0
2.588,26340.0
2.586,26614.0
2.584,26886.0
2.584,27159.0
2.655,27431.0
2.665,27701.0
2.68,27972.0
2.737,28244.0
2.762,28515.0
2.753,28785.0
2.752,29057.0
2.75,29330.0
2.744,29602.0
2.743,29871.0
2.742,30144.0
2.745,30417.0
2.747,30690.0
2.749,30961.0
2.748,31232.0
2.749,31504.0
2.752,31776.0
2.753,32047.0
2.753,32320.0
2.752,32591.0
2.754,32863.0
2.756,33135.0
2.757,33407.0
2.759,33681.0
2.759,33955.0
2.758,34225.0
2.755,34498.0
2.755,34770.0
2.754,35042.0
2.754,35316.0
2.756,35588.0
2.754,35859.0
2.752,36133.0
2.75,36406.0
2.788,36676.0
2.852,36947.0
2.866,37219.0
2.855,37491.0
2.859,37764.0
2.861,38038.0
2.856,38310.0
2.852,38584.0
2.849,38856.0
2.846,39128.0
2.843,39399.0
2.844,39673.0
2.842,39944.0
2.841,40214.0
2.841,40487.0
2.84,40755.0
2.838,41027.0
2.839,41300.0
2.839,41571.0
2.837,41843.0
2.842,42116.0
2.839,42386.0
2.84,42656.0
2.836,42926.0
2.833,43197.0
2.836,43471.0
2.837,43744.0
2.837,44014.0
2.839,44287.0
2.842,44557.0
2.851,44829.0
2.853,45101.0
2.849,45371.0
2.847,45642.0
2.85,45913.0
2.846,46184.0
2.846,46455.0
2.847,46727.0
2.842,47000.0
2.852,47275.0
2.855,47548.0
2.855,47821.0
2.855,48094.0
2.853,48365.0
2.854,48636.0
2.848,48906.0
2.849,49177.0
2.852,49449.0
2.856,49721.0
2.859,49994.0
2.868,50265.0
2.87,50538.0
2.871,50810.0
2.87,51081.0
2.859,51353.0
2.865,51624.0
2.869,51895.0
2.873,52166.0
2.872,52437.0
2.872,52708.0
2.875,52980.0
2.873,53251.0
2.875,53524.0
2.881,53797.0
2.882,54068.0
2.898,54339.0
2.897,54611.0
2.905,54885.0
2.911,55155.0
2.915,55426.0
2.921,55700.0
2.927,55971.0
2.936,56244.0
2.946,56515.0
2.94,56787.0
2.942,57061.0
2.946,57333.0
2.947,57607.0
2.95,57878.0
2.959,58150.0
2.955,58422.0
2.958,58694.0
2.961,58967.0
2.961,59239.0
2.961,59511.0
2.968,59781.0
2.974,60052.0
2.976,60324.0
2.98,60595.0
2.992,60867.0
3.01,61137.0
3.029,61408.0
3.049,61679.0
3.051,61953.0
3.061,62227.0
3.067,62497.0
3.067,62770.0
3.059,63039.0
3.06,63311.0
3.064,63583.0
3.069,63858.0
3.071,64127.0
3.081,64398.0
3.08,64669.0
3.094,64941.0
3.105,65214.0
3.118,65486.0
3.121,65756.0
3.131,66029.0
3.133,66301.0
3.152,66573.0
3.161,66842.0
3.179,67114.0
3.171,67385.0
3.185,67657.0
3.184,67929.0
3.192,68201.0
3.194,68474.0
3.212,68746.0
3.224,69017.0
3.229,69288.0
3.237,69562.0
3.244,69835.0
3.265,70107.0
3.265,70376.0
3.287,70645.0
3.274,70919.0
3.275,71191.0
3.281,71463.0
3.287,71734.0
3.292,72006.0
3.308,72278.0
3.322,72549.0
3.337,72821.0
3.338,73093.0
3.353,73365.0
3.362,73637.0
3.359,73909.0
3.378,74181.0
3.372,74451.0
3.368,74723.0
3.384,74993.0
3.42,75266.0
3.438,75539.0
3.446,75812.0
3.477,76085.0
3.486,76355.0
3.485,76628.0
3.541,76901.0
3.571,77174.0
3.582,77446.0
3.605,77718.0
3.617,77988.0
3.633,78261.0
3.642,78534.0
3.638,78804.0
3.61,79078.0
3.62,79351.0
3.637,79622.0
3.661,79894.0
3.666,80166.0
3.685,80437.0
3.672,80707.0
3.678,80979.0
3.702,81250.0
3.711,81521.0
3.721,81793.0
3.729,82065.0
3.738,82335.0
3.765,82607.0
3.782,82879.0
3.808,83150.0
3.823,83421.0
3.851,83693.0
3.871,83966.0
3.874,84241.0
3.912,84514.0
3.931,84785.0
3.941,85055.0
3.959,85330.0
3.987,85604.0
3.99,85874.0
4.018,86146.0
4.052,86418.0
4.07,86691.0
4.086,86961.0
4.118,87234.0
4.136,87507.0
4.163,87781.0
4.222,88052.0
4.227,88324.0
4.245,88594.0
4.253,88865.0
4.271,89137.0
4.293,89409.0
4.314,89682.0
4.343,89954.0
4.379,90227.0
4.38,90499.0
4.401,90769.0
4.462,91042.0
4.505,91314.0
4.521,91588.0
4.542,91860.0
4.579,92132.0
4.607,92404.0
4.615,92673.0
4.64,92943.0
4.696,93215.0
4.728,93488.0
4.743,93758.0
4.79,94029.0
4.832,94299.0
4.837,94573.0
4.852,94843.0
4.914,95116.0
4.927,95388.0
4.96,95658.0
4.999,95931.0
5.069,96202.0
